File: Lab 04 Report/src/Lab 4 Tensile Data Instron.csv
Time (s),Extension (in),Load (lbf)
0,0,0.02346
0.1,0.00001,0.14813
0.2,0.00003,0.67896
0.3,0.00005,1.25415
0.4,0.00007,1.85824
0.5,0.00009,2.39315
0.6,0.0001,3.03671
0.7,0.00012,3.58456
0.8,0.00013,4.25975
0.9,0.00015,4.86076
1,0.00017,5.56071
1.1,0.00019,6.19837
1.2,0.0002,6.86384
1.3,0.00022,7.44762
1.4,0.00023,8.08236
1.5,0.00025,8.6621
1.6,0.00027,9.29161
1.7,0.00028,9.92572
1.8,0.0003,10.55893
1.9,0.00031,11.10667
2,0.00033,11.73241
2.1,0.00034,12.28573
2.2,0.00036,12.91472
2.3,0.00037,13.53392
2.4,0.00039,14.19553
2.5,0.00041,14.7757
2.6,0.00042,15.39797
2.7,0.00044,15.9821
2.8,0.00045,16.58499
2.9,0.00047,17.18357
3,0.00049,17.85484
3.1,0.0005,18.47274
3.2,0.00052,19.10204
3.3,0.00053,19.73098
3.4,0.00055,20.33324
3.5,0.00056,20.86782
3.6,0.00058,21.44468
3.7,0.0006,22.04566
3.8,0.00061,22.66326
3.9,0.00063,23.29133
4,0.00064,23.91536
4.1,0.00066,24.52862
4.2,0.00068,25.12836
4.3,0.00069,25.67853
4.4,0.00071,26.26556
4.5,0.00072,26.88748
4.6,0.00074,27.49456
4.7,0.00076,28.06937
4.8,0.00077,28.7188
4.9,0.00079,29.25723
5,0.0008,29.84186
5.1,0.00082,30.48273
5.2,0.00084,31.07305
5.3,0.00085,31.69431
5.4,0.00087,32.2965
5.5,0.00089,32.8823
5.6,0.0009,33.48539
5.7,0.00092,34.07361
5.8,0.00094,34.72752
5.9,0.00095,35.32188
6,0.00097,35.96055
6.1,0.00099,36.54902
6.2,0.001,37.12004
6.3,0.00102,37.67987
6.4,0.00104,38.27962
6.5,0.00105,38.90069
6.6,0.00107,39.52218
6.7,0.00109,40.16449
6.8,0.0011,40.76233
6.9,0.00112,41.35403
7,0.00113,41.90464
7.1,0.00115,42.52078
7.2,0.00117,43.10802
7.3,0.00118,43.7374
7.4,0.0012,44.311
7.5,0.00122,44.89416
7.6,0.00123,45.46311
7.7,0.00125,46.10613
7.8,0.00127,46.70348
7.9,0.00128,47.31368
8,0.0013,47.92832
8.1,0.00132,48.52521
8.2,0.00133,49.11201
8.3,0.00135,49.71178
8.4,0.00136,50.3032
8.5,0.00138,50.92729
8.6,0.0014,51.53042
8.7,0.00142,52.1564
8.8,0.00143,52.79361
8.9,0.00145,53.35147
9,0.00146,53.89368
9.1,0.00148,54.50421
9.2,0.0015,55.10542
9.3,0.00152,55.68284
9.4,0.00153,56.3137
9.5,0.00155,56.93225
9.6,0.00157,57.52148
9.7,0.00158,58.10348
9.8,0.0016,58.69131
9.9,0.00162,59.3404
10,0.00163,59.92985
10.1,0.00165,60.53093
10.2,0.00167,61.1058
10.3,0.00168,61.71379
10.4,0.0017,62.30737
10.5,0.00172,62.90291
10.6,0.00174,63.53656
10.7,0.00175,64.13686
10.8,0.00177,64.70248
10.9,0.00179,65.27711
11,0.0018,65.86739
11.1,0.00182,66.52161
11.2,0.00184,67.08583
11.3,0.00185,67.74808
11.4,0.00187,68.33926
11.5,0.00189,68.98394
11.6,0.00191,69.52595
11.7,0.00192,70.10924
11.8,0.00194,70.70303
11.9,0.00196,71.2989
12,0.00197,71.91849
12.1,0.00199,72.53379
12.2,0.00201,73.1545
12.3,0.00203,73.75311
12.4,0.00204,74.31178
12.5,0.00206,74.91643
12.6,0.00208,75.52491
12.7,0.0021,76.13503
12.8,0.00211,76.70171
12.9,0.00213,77.2911
13,0.00214,77.86564
13.1,0.00216,78.46354
13.2,0.00218,79.06344
13.3,0.0022,79.6902
13.4,0.00221,80.30961
13.5,0.00223,80.90483
13.6,0.00225,81.46619
13.7,0.00227,82.06775
13.8,0.00228,82.7028
13.9,0.0023,83.35572
14,0.00232,83.98559
14.1,0.00234,84.5516
14.2,0.00235,85.12585
14.3,0.00237,85.71169
14.4,0.00239,86.28304
14.5,0.00241,86.91397
14.6,0.00242,87.5395
14.7,0.00244,88.14591
14.8,0.00246,88.74292
14.9,0.00248,89.32296
15,0.00249,89.90558
15.1,0.00251,90.49439
15.2,0.00253,91.10594
15.3,0.00255,91.7342
15.4,0.00256,92.30822
15.5,0.00258,92.90551
15.6,0.0026,93.49883
15.7,0.00262,94.06797
15.8,0.00263,94.70906
15.9,0.00265,95.29602
16,0.00267,95.9241
16.1,0.00269,96.5037
16.2,0.00271,97.12073
16.3,0.00272,97.70293
16.4,0.00274,98.30926
16.5,0.00276,98.94253
16.6,0.00278,99.57254
16.7,0.0028,100.1799
16.8,0.00281,100.704
16.9,0.00283,101.31
17,0.00285,101.882
17.1,0.00287,102.5014
17.2,0.00288,103.123
17.3,0.0029,103.761
17.4,0.00292,104.37
17.5,0.00294,104.9509
17.6,0.00295,105.488
17.7,0.00297,106.09
17.8,0.00299,106.716
17.9,0.00301,107.323
18,0.00303,107.927
18.1,0.00304,108.493
18.2,0.00306,109.092
18.3,0.00308,109.701
18.4,0.0031,110.31
18.5,0.00312,110.942
18.6,0.00314,111.5
18.7,0.00315,112.099
18.8,0.00317,112.701
18.9,0.00319,113.281
19,0.00321,113.938
19.1,0.00323,114.5545
19.2,0.00325,115.161
19.3,0.00326,115.712
19.4,0.00328,116.2629
19.5,0.0033,116.8808
19.6,0.00332,117.514
19.7,0.00334,118.12
19.8,0.00336,118.726
19.9,0.00338,119.345
20,0.00339,119.923
20.1,0.00341,120.525
20.2,0.00343,121.104
20.3,0.00345,121.749
20.4,0.00347,122.325
20.5,0.00349,122.893
20.6,0.00351,123.464
20.7,0.00352,124.103
20.8,0.00354,124.705
20.9,0.00356,125.328
21,0.00358,125.922
21.1,0.0036,126.48
21.2,0.00362,127.108
21.3,0.00364,127.7
21.4,0.00366,128.342
21.5,0.00368,128.962
21.6,0.0037,129.553
21.7,0.00372,130.17
21.8,0.00373,130.698
21.9,0.00375,131.301
22,0.00377,131.9339
22.1,0.00379,132.53
22.2,0.00381,133.151
22.3,0.00383,133.764
22.4,0.00385,134.303
22.5,0.00387,134.898
22.6,0.00389,135.505
22.7,0.00391,136.133
22.8,0.00393,136.701
22.9,0.00394,137.268
23,0.00396,137.861
23.1,0.00398,138.521
23.2,0.004,139.1
23.3,0.00402,139.729
23.4,0.00404,140.303
23.5,0.00406,140.908
23.6,0.00408,141.513
23.7,0.0041,142.136
23.8,0.00412,142.76
23.9,0.00414,143.378
24,0.00416,143.952
24.1,0.00418,144.516
24.2,0.0042,145.0636
24.3,0.00422,145.692
24.4,0.00424,146.359
24.5,0.00426,146.952
24.6,0.00428,147.554
24.7,0.00429,148.143
24.8,0.00431,148.731
24.9,0.00433,149.328
25,0.00435,149.924
25.1,0.00437,150.495
25.2,0.00439,151.1
25.3,0.00441,151.695
25.4,0.00443,152.274
25.5,0.00445,152.92
25.6,0.00447,153.547
25.7,0.00449,154.107
25.8,0.00451,154.702
25.9,0.00453,155.284
26,0.00455,155.9166
26.1,0.00457,156.551
26.2,0.00459,157.177
26.3,0.00461,157.753
26.4,0.00463,158.324
26.5,0.00465,158.875
26.6,0.00467,159.528
26.7,0.00469,160.119
26.8,0.00471,160.742
26.9,0.00473,161.308
27,0.00475,161.899
27.1,0.00477,162.4874
27.2,0.00479,163.1383
27.3,0.00481,163.709
27.4,0.00483,164.283
27.5,0.00485,164.901
27.6,0.00487,165.4759
27.7,0.00489,166.103
27.8,0.00491,166.692
27.9,0.00493,167.317
28,0.00495,167.89
28.1,0.00497,168.462
28.2,0.00499,169.095
28.3,0.00501,169.692
28.4,0.00503,170.325
28.5,0.00505,170.929
28.6,0.00507,171.52
28.7,0.00509,172.1
28.8,0.00511,172.71
28.9,0.00513,173.318
29,0.00516,173.963
29.1,0.00518,174.537
29.2,0.0052,175.122
29.3,0.00521,175.71
29.4,0.00523,176.339
29.5,0.00525,176.938
29.6,0.00527,177.537
29.7,0.00529,178.082
29.8,0.00531,178.668
29.9,0.00533,179.2696
30,0.00535,179.912
30.1,0.00537,180.516
30.2,0.00539,181.136
30.3,0.00541,181.712
30.4,0.00543,182.278
30.5,0.00545,182.888
30.6,0.00547,183.539
30.7,0.00549,184.175
30.8,0.0055,184.801
30.9,0.00552,185.315
31,0.00554,185.909
31.1,0.00556,186.492
31.2,0.00557,187.111
31.3,0.00559,187.745
31.4,0.00561,188.336
31.5,0.00563,188.926
31.6,0.00565,189.5218
31.7,0.00566,190.0822
31.8,0.00568,190.684
31.9,0.0057,191.308
32,0.00572,191.954
32.1,0.00574,192.4788
32.2,0.00575,193.0908
32.3,0.00577,193.635
32.4,0.00579,194.267
32.5,0.00581,194.887
32.6,0.00582,195.498
32.7,0.00584,196.125
32.8,0.00586,196.704
32.9,0.00588,197.309
33,0.00589,197.899
33.1,0.00591,198.524
33.2,0.00593,199.137
33.3,0.00595,199.854
33.4,0.00597,200.337
33.5,0.00598,200.902
33.6,0.006,201.479
33.7,0.00602,202.119
33.8,0.00604,202.705
33.9,0.00606,203.343
34,0.00607,203.915
34.1,0.00609,204.5106
34.2,0.00611,205.133
34.3,0.00613,205.706
34.4,0.00614,206.342
34.5,0.00616,206.9214
34.6,0.00618,207.524
34.7,0.0062,208.129
34.8,0.00622,208.684
34.9,0.00623,209.317
35,0.00625,209.923
35.1,0.00627,210.554
35.2,0.00629,211.11
35.3,0.0063,211.686
35.4,0.00632,212.305
35.5,0.00634,212.894
35.6,0.00636,213.548
35.7,0.00638,214.1436
35.8,0.0064,214.778
35.9,0.00641,215.359
36,0.00643,215.942
36.1,0.00645,216.533
36.2,0.00647,217.12
36.3,0.00648,217.717
36.4,0.0065,218.374
36.5,0.00652,218.942
36.6,0.00654,219.556
36.7,0.00656,220.17
36.8,0.00657,220.714
36.9,0.00659,221.315
37,0.00661,221.97
37.1,0.00663,222.518
37.2,0.00664,223.108
37.3,0.00666,223.75
37.4,0.00668,224.317
37.5,0.0067,224.957
37.6,0.00672,225.543
37.7,0.00673,226.123
37.8,0.00675,226.748
37.9,0.00677,227.308
38,0.00679,227.898
38.1,0.0068,228.496
38.2,0.00682,229.127
38.3,0.00684,229.76
38.4,0.00686,230.365
38.5,0.00688,230.968
38.6,0.0069,231.602
38.7,0.00691,232.135
38.8,0.00693,232.7445
38.9,0.00695,233.364
39,0.00697,233.9622
39.1,0.00699,234.59
39.2,0.007,235.161
39.3,0.00702,235.688
39.4,0.00704,236.296
39.5,0.00706,236.92
39.6,0.00707,237.536
39.7,0.00709,238.137
39.8,0.00711,238.663
39.9,0.00713,239.291
40,0.00714,239.876
40.1,0.00716,240.4576
40.2,0.00718,241.098
40.3,0.0072,241.711
40.4,0.00721,242.273
40.5,0.00723,242.905
40.6,0.00725,243.495
40.7,0.00727,244.131
40.8,0.00729,244.799
40.9,0.0073,245.384
41,0.00732,245.938
41.1,0.00734,246.55
41.2,0.00736,247.115
41.3,0.00737,247.675
41.4,0.00739,248.288
41.5,0.00741,248.916
41.6,0.00743,249.503
41.7,0.00744,250.125
41.8,0.00746,250.726
41.9,0.00748,251.291
42,0.0075,251.894
42.1,0.00751,252.535
42.2,0.00753,253.081
42.3,0.00755,253.659
42.4,0.00756,254.3
42.5,0.00758,254.913
42.6,0.0076,255.498
42.7,0.00762,256.1184
42.8,0.00763,256.765
42.9,0.00765,257.318
43,0.00767,257.918
43.1,0.00768,258.493
43.2,0.0077,259.088
43.3,0.00772,259.761
43.4,0.00774,260.338
43.5,0.00775,260.966
43.6,0.00777,261.532
43.7,0.00779,262.102
43.8,0.0078,262.678
43.9,0.00782,263.288
44,0.00784,263.902
44.1,0.00786,264.501
44.2,0.00787,265.137
44.3,0.00789,265.722
44.4,0.00791,266.3388
44.5,0.00792,266.906
44.6,0.00794,267.494
44.7,0.00796,268.105
44.8,0.00797,268.726
44.9,0.00799,269.342
45,0.00801,269.896
45.1,0.00802,270.476
45.2,0.00804,271.0891
45.3,0.00806,271.6579
45.4,0.00807,272.361
45.5,0.00809,272.891
45.6,0.00811,273.583
45.7,0.00812,274.11
45.8,0.00814,274.701
45.9,0.00816,275.2726
46,0.00817,275.931
46.1,0.00819,276.546
46.2,0.00821,277.1765
46.3,0.00822,277.746
46.4,0.00824,278.366
46.5,0.00826,278.905
46.6,0.00827,279.495
46.7,0.00829,280.153
46.8,0.00831,280.744
46.9,0.00832,281.3706
47,0.00834,281.968
47.1,0.00835,282.532
47.2,0.00837,283.159
47.3,0.00838,283.728
47.4,0.0084,284.332
47.5,0.00842,284.948
47.6,0.00843,285.501
47.7,0.00845,286.101
47.8,0.00846,286.674
47.9,0.00848,287.279
48,0.0085,287.934
48.1,0.00851,288.513
48.2,0.00853,289.144
48.3,0.00854,289.8236
48.4,0.00856,290.306
48.5,0.00857,290.899
48.6,0.00859,291.467
48.7,0.0086,292.077
48.8,0.00862,292.7729
48.9,0.00863,293.336
49,0.00865,293.975
49.1,0.00866,294.577
49.2,0.00868,295.186
49.3,0.00869,295.716
49.4,0.00871,296.283
49.5,0.00872,296.881
49.6,0.00874,297.5792
49.7,0.00875,298.107
49.8,0.00877,298.815
49.9,0.00878,299.347
50,0.0088,299.929
50.011,0.0088,300.007